File: XRD calculation/RC_Ti_GaAs111sm2.txt
-1.31386,0.972193
-1.3086,0.733246
-1.30333,1.40282
-1.29807,1.78328
-1.2928,1.08002
-1.28754,1.30567
-1.28227,0.952111
-1.277,1.0235
-1.27174,1.29914
-1.26647,0.849125
-1.26121,1.19397
-1.25594,0.892813
-1.25068,0.908786
-1.24541,0.771003
-1.24014,0.731698
-1.23488,0.638149
-1.229613,0.60126
-1.22435,0.836633
-1.21908,0.825129
-1.21382,0.561608
-1.20855,0.814614
-1.20328,0.915522
-1.19802,0.876102
-1.19275,1.15504
-1.18749,0.622643
-1.18222,0.506079
-1.176956,0.918369
-1.17169,1.14454
-1.16642,1.10754
-1.16116,0.799031
-1.15589,0.807672
-1.15063,0.872474
-1.14536,0.747445
-1.1401,1.35253
-1.13483,1.28668
-1.12956,1.12762
-1.124299,1.28293
-1.11903,0.831917
-1.11377,1.19146
-1.1085,0.735227
-1.10324,0.671365
-1.09797,0.662518
-1.0927,0.999127
-1.08744,0.913042
-1.08217,0.932061
-1.07691,1.17329
-1.071642,0.818267
-1.06638,0.619972
-1.06111,0.78388
-1.05584,0.581918
-1.05058,0.923334
-1.04531,0.876374
-1.04005,0.823461
-1.03478,1.00136
-1.02952,0.708934
-1.02425,0.80934
-1.018985,0.898572
-1.01372,1.38457
-1.00845,0.774239
-1.00319,0.888907
-0.997922,0.954097
-0.992656,0.944234
-0.987391,1.2138
-0.982125,1.44086
-0.976859,1.04178
-0.971594,1.5015
-0.966328,1.2891
-0.961062,0.835573
-0.955797,1.00457
-0.950531,1.02194
-0.945265,1.10696
-0.939999,0.92595
-0.934734,0.795553
-0.929468,0.823634
-0.924202,1.06557
-0.918937,1.11738
-0.913671,1.07397
-0.908405,0.972989
-0.90314,0.973307
-0.897874,0.990256
-0.892608,0.969055
-0.887342,0.811094
-0.882077,0.827152
-0.876811,0.981495
-0.871545,1.28207
-0.86628,1.23921
-0.861014,0.811496
-0.855748,1.04064
-0.850483,0.966247
-0.845217,0.939256
-0.839951,1.38303
-0.834685,1.21737
-0.82942,0.83936
-0.824154,0.748004
-0.818888,1.05089
-0.813623,1.20943
-0.808357,1.4203
-0.803091,1.62208
-0.797826,1.31292
-0.79256,1.26783
-0.787294,1.56238
-0.782028,1.1852
-0.776763,1.2924
-0.771497,1.55802
-0.766231,1.70477
-0.760966,1.62715
-0.7557,1.72462
-0.750434,1.86733
-0.745169,1.51937
-0.739903,1.69141
-0.734637,1.82947
-0.729371,1.78157
-0.724106,2.33013
-0.71884,1.91302
-0.713574,1.62255
-0.708309,1.57849
-0.703043,1.8806
-0.697777,1.95757
-0.692512,2.08283
-0.687246,1.56333
-0.68198,1.63648
-0.676714,1.79942
-0.671449,1.75591
-0.666183,1.64255
-0.660917,1.6654
-0.655652,1.47509
-0.650386,1.71631
-0.64512,1.82376
-0.639855,1.90132
-0.634589,1.76035
-0.629323,1.66346
-0.624057,1.99848
-0.618792,2.18402
-0.613526,2.03598
-0.60826,1.89551
-0.602995,1.67407
-0.597729,1.83562
-0.592463,1.64544
-0.587198,1.6961
-0.581932,2.62705
-0.576666,3.10489
-0.5714,2.65865
-0.566135,2.15394
-0.560869,2.07092
-0.555603,2.53678
-0.550338,2.91527
-0.545072,2.84228
-0.539806,2.92684
-0.534541,2.42955
-0.529275,2.87272
-0.524009,2.57644
-0.518743,2.55206
-0.513478,3.08445
-0.508212,2.76337
-0.502946,2.67465
-0.497681,3.79924
-0.492415,3.70556
-0.487149,3.56371
-0.481884,3.02748
-0.476618,3.25714
-0.471352,3.47736
-0.466086,2.94969
-0.460821,3.20255
-0.455555,3.2163
-0.450289,3.31276
-0.445024,3.77626
-0.439758,4.31369
-0.434492,3.75805
-0.429227,3.85842
-0.423961,4.11828
-0.418695,5.08202
-0.413429,5.07339
-0.408164,4.4198
-0.402898,4.67096
-0.397632,4.95372
-0.392367,5.17825
-0.387101,5.08792
-0.381835,4.51393
-0.37657,4.76454
-0.371304,5.11851
-0.366038,5.24531
-0.360772,5.0704
-0.355507,5.63253
-0.350241,5.91029
-0.344975,5.46956
-0.33971,5.67319
-0.334444,6.29402
-0.329178,6.70127
-0.323913,7.0089
-0.318647,6.74066
-0.313381,6.39578
-0.308115,6.46813
-0.30285,7.37318
-0.297584,7.80958
-0.292318,7.77736
-0.287053,8.98672
-0.281787,8.50926
-0.276521,8.47206
-0.271256,8.84656
-0.26599,8.94509
-0.260724,9.10228
-0.255458,9.36964
-0.250193,10.9257
-0.244927,11.3143
-0.239661,11.1935
-0.234396,11.303
-0.22913,12.6884
-0.223864,12.7645
-0.218599,13.9508
-0.213333,14.899
-0.208067,15.1546
-0.202801,16.0509
-0.197536,16.831
-0.19227,18.8667
-0.187004,19.9333
-0.181739,20.2184
-0.176473,21.3819
-0.171207,21.999
-0.165942,24.1077
-0.160676,25.7124
-0.15541,27.3965
-0.150144,29.4663
-0.144879,31.4277
-0.139613,35.0798
-0.134347,37.3363
-0.129082,40.1376
-0.123816,42.2148
-0.11855,45.611
-0.113285,49.7235
-0.108019,54.6746
-0.102753,60.5861
-0.0974875,69.1164
-0.0922218,80.0905
-0.0869561,89.8438
-0.0816904,96.5194
-0.0764247,111.056
-0.071159,130.428
-0.0658933,150.817
-0.0606276,186.109
-0.0553619,226.477
-0.0500962,281.496
-0.0448305,365.304
-0.0395648,501.199
-0.0342991,758.87
-0.0290334,1262.14
-0.0237677,2314.44
-0.018502,4806.4
-0.0132363,10568.6
-0.007970592,19534.9
-0.002704892,26146.5
0.002560808,25747.8
0.007826508,19968.3
0.0130922,12708.5
0.0183579,6943.97
0.0236236,3570.75
0.0288893,1944.35
0.034155,1182.13
0.0394207,780.098
0.0446864,542.073
0.0499521,395.007
0.0552178,297.217
0.0604835,236.673
0.0657492,196.582
0.0710149,164.583
0.0762806,140.836
0.0815463,119.061
0.086812,103.734
0.0920777,91.6552
0.0973434,79.975
0.102609,72.3543
0.107875,63.9006
0.113141,59.0673
0.118406,51.814
0.123672,47.9227
0.128938,44.264
0.134203,39.3887
0.139469,38.6441
0.144735,35.8289
0.15,34.3252
0.155266,32.0365
0.160532,29.4933
0.165798,27.8731
0.171063,25.99917
0.176329,23.3253
0.181595,22.0253
0.18686,21.1462
0.192126,19.7133
0.197392,17.7086
0.202657,17.7024
0.207923,17.2586
0.213189,16.2252
0.218455,15.9982
0.22372,15.6611
0.228986,14.6413
0.234252,14.4997
0.239517,12.396
0.244783,11.8723
0.250049,10.6417
0.255314,10.6953
0.26058,9.86833
0.265846,10.6795
0.271112,10.3501
0.276377,9.80401
0.281643,9.96933
0.286909,9.25627
0.292174,8.72187
0.29744,8.42464
0.302706,8.27517
0.307971,7.79778
0.313237,7.14862
0.318503,7.29865
0.323769,7.36968
0.329034,7.49088
0.3343,6.7311
0.339566,6.05509
0.344831,6.31428
0.350097,6.60126
0.355363,5.78493
0.360628,6.28477
0.365894,6.00507
0.37116,5.44911
0.376426,5.69086
0.381691,5.54025
0.386957,5.2313
0.392223,4.88868
0.397488,4.6418
0.402754,4.96182
0.40802,5.2143
0.413285,4.82441
0.418551,4.1392
0.423817,4.21332
0.429083,4.4787
0.434348,4.6971
0.439614,4.57789
0.44488,4.40294
0.450145,4.17359
0.455411,5.01006
0.460677,4.3313
0.465942,3.76968
0.471208,3.75794
0.476474,3.88769
0.48174,3.66596
0.487005,3.17837
0.492271,3.44512
0.497537,3.22097
0.502802,3.31975
0.508068,3.21728
0.513334,2.77365
0.518599,3.2638
0.523865,3.45812
0.529131,2.77089
0.534397,2.81631
0.539662,2.12567
0.544928,2.20424
0.550194,2.31471
0.555459,2.51879
0.560725,2.03795
0.565991,1.89708
0.571256,2.15722
0.576522,2.54616
0.581788,2.21953
0.587054,2.06987
0.592319,1.98823
0.597585,1.90402
0.602851,2.00536
0.608116,1.8549
0.613382,1.83803
0.618648,1.69079
0.623913,1.86275
0.629179,1.91821
0.634445,1.74123
0.639711,2.11631
0.644976,2.40245
0.650242,2.23524
0.655508,1.85748
0.660773,1.62781
0.666039,1.71035
0.671305,1.65784
0.67657,1.96909
0.681836,1.66547
0.687102,1.36409
0.692368,1.2481
0.697633,0.90485
0.702899,1.06998
0.708165,1.18359
0.71343,0.914626
0.718696,0.898622
0.723962,1.0047
0.729227,0.597468
0.734493,0.479807
0.739759,0.990541
0.745025,1.05689
0.75029,0.898578
0.755556,1.34453
0.760822,1.13718
0.766087,0.846958
0.771353,0.607197
0.776619,1.17162
0.781884,1.6102
0.78715,1.30955
0.792416,0.958683
0.797682,0.779838
0.802947,1.14108
0.808213,0.996005
0.813479,0.861677
0.818744,0.851068
0.82401,0.978418
0.829276,1.1234
0.834541,1.70662
0.839807,1.51708
0.845073,1.05301
0.850339,0.733252
0.855604,0.643396
0.86087,0.713411
0.866136,1.02762
0.871401,1.05768
0.876667,0.830269
0.881933,0.841261
0.887198,0.847509
0.892464,0.827833
0.89773,0.834708
0.902996,0.807086
0.908261,0.771655
0.913527,1.12407
0.918793,0.748738
0.924058,1.35952
0.929324,1.87966
0.93459,1.66804
0.939855,1.03299
0.945121,0.990894
0.950387,1.11067
0.955653,0.834829
0.960918,0.945374
0.966184,0.989325
0.97145,0.917238
0.976715,0.841619
0.981981,0.81614
0.987247,1.18771
0.992512,1.17573
0.997778,1.44474
1.00304,1.61188
1.00831,0.950121
1.01358,0.742132
1.01884,0.69122
1.02411,0.623592
1.02937,0.633746
1.034638,1.10202
1.0399,0.902295
1.04517,0.640303
1.05044,0.610824
1.0557,1.15
1.06097,1.51534
1.06623,0.900906
1.0715,1.05775
1.07676,1.30231
1.08203,0.887572
1.087295,0.861649
1.09256,0.832285
1.09783,0.964327
1.10309,0.997713
1.10836,0.726715
1.11362,0.767311
1.11889,1.04126
1.12415,1.18123
1.12942,1.25439
1.13469,1.2503
1.139952,1.21894
1.14522,0.866161
1.15048,0.627412
1.15575,0.695355
1.16101,0.701975
1.16628,1.21589
1.17155,0.756243
1.17681,0.774066
1.18208,0.866601
1.18734,1.06889
1.192609,0.58077
1.19787,0.628486
1.20314,0.734479
1.20841,0.771734
1.21367,0.994644
1.21894,0.903409
1.2242,0.884795
1.22947,0.700096
1.23473,0.864264
1.24,1.12733
1.245266,0.912171
1.25053,0.78048
1.2558,0.930679
1.26106,0.733937
1.26633,0.97535
1.27159,1.07055
1.27686,0.677231
1.28213,1.04432
1.28739,1.05927
1.29266,1.35748
1.297923,1.38823
1.30319,1.05808
1.30845,1.09771
1.31372,0.74473
1.31899,0.953405